Folder: FeRedoxImaging/data/raman_scores

Note: README.md
# Data processing for quantitative Fe redox imaging

This repository provides the processing code used in *Ellison, E.T., Mayhew, L.E., Miller, H.M., and Templeton, A.S. (2020) [Quantitative microscale Fe redox imaging by multiple energy X-ray fluorescence mapping at the Fe K pre-edge peak](https://doi.org/10.2138/am-2020-7359). _American Mineralogist_, 105, 1812â€“1829*.
The raw XRF multiple energy map, XANES spectra, and calibration data are included. The code completes all of the processing steps and generates the data figures as well as the supplemental information.

## Reproducibility
This repository reflects the final data analysis presented in the paper and is therefore static.

This package uses [Packrat](https://rstudio.github.io/packrat/) to record the package versions used. For additional platform information, see [sessionInfo.txt](https://github.com/ellison2811/FeRedoxImaging/blob/main/sessionInfo.txt).

  To reproduce the results reported in the paper, [Processing.Rmd](https://github.com/ellison2811/FeRedoxImaging/blob/main/Processing.Rmd) should be run in its entirety. Afterwords, [Supplemental_Figures.Rmd](https://github.com/ellison2811/FeRedoxImaging/blob/main/Supplemental_Figures.Rmd) can be knit in order to generate the supplement.

## License
[GNU GPLv3](https://choosealicense.com/licenses/gpl-3.0/)

File: TiO2_map.csv
,-235.075,-233.08,-231.085,-229.09,-227.095,-225.1,-223.104,-221.109,-219.114,-217.119,-215.124,-213.129,-211.133,-209.138,-207.143,-205.148,-203.153,-201.158,-199.163,-197.167,-195.172,-193.177,-191.182,-189.187,-187.192,-185.196,-183.201,-181.206,-179.211,-177.216,-175.221,-173.225,-171.23,-169.235,-167.24,-165.245,-163.25,-161.254,-159.259,-157.264,-155.269,-153.274,-151.279,-149.283,-147.288,-145.293,-143.298,-141.303,-139.308,-137.312,-135.317,-133.322,-131.327,-129.332,-127.337,-125.341,-123.346,-121.351,-119.356,-117.361,-115.366,-113.37,-111.375,-109.38,-107.385,-105.39,-103.395,-101.4,-99.4044,-97.4092,-95.414,-93.4189,-91.4237,-89.4285,-87.4334,-85.4382,-83.443,-81.4479,-79.4527,-77.4576,-75.4624,-73.4672,-71.4721,-69.4769,-67.4817,-65.4866,-63.4914,-61.4963,-59.5011,-57.5059,-55.5108,-53.5156,-51.5204,-49.5253,-47.5301,-45.5349,-43.5398,-41.5446,-39.5495,-37.5543,-35.5591,-33.564,-31.5688,-29.5736,-27.5785,-25.5833,-23.5882,-21.593,-19.5978,-17.6027,-15.6075,-13.6123,-11.6172,-9.62201,-7.62685,-5.63169,-3.63652,-1.64136,0.353804,2.34897,4.34413,6.33929,8.33446,10.3296,12.3248,14.3199,16.3151,18.3103,20.3054,22.3006,24.2958,26.2909,28.2861,30.2813,32.2764,34.2716,36.2667,38.2619,40.2571,42.2522,44.2474,46.2426,48.2377,50.2329,52.228,54.2232,56.2184,58.2135,60.2087,62.2039,64.199,66.1942,68.1893,70.1845,72.1797,74.1748,76.17,78.1652,80.1603,82.1555,84.1507,86.1458,88.141,90.1361,92.1313,94.1265,96.1216,98.1168,100.112,102.107,104.102,106.097,108.093,110.088,112.083,114.078,116.073,118.068,120.064,122.059,124.054,126.049,128.044,130.039,132.035,134.03,136.025,138.02,140.015,142.01,144.006,146.001,147.996,149.991,151.986,153.981,155.977,157.972,159.967
-266.866,255,236,257,266,289,297,287,277,262,240,227,222,191,178,190,176,184,142,154,187,199,231,247,264,245,230,203,235,224,206,221,220,213,211,219,198,201,221,224,220,195,207,204,212,228,183,176,159,163,205,204,187,170,178,183,198,681,1703,3387,5700,5546,4041,2309,1215,483,216,195,203,219,234,253,265,260,239,226,257,253,281,298,253,248,255,258,263,228,219,238,240,231,239,251,248,214,182,156,158,151,143,172,189,200,226,282,301,321,318,255,311,310,301,256,175,209,229,249,252,240,242,226,197,189,163,168,157,157,152,154,151,144,141,140,136,139,138,223,150,176,172,156,132,112,104,104,155,285,315,251,217,276,241,219,202,211,186,192,175,215,175,185,156,214,239,439,1647,1927,2758,4928,2785,1108,288,221,207,172,166,240,265,232,246,242,239,242,266,235,208,193,267,273,190,167,180,200,230,240,254,232,207,195,173,180
-212.881,283,287,276,276,228,211,232,225,226,250,243,250,245,243,209,152,146,443,1044,1184,204,187,179,184,217,210,225,231,221,244,220,1748,4616,4808,1404,2273,2200,3247,3008,1107,743,625,2935,5292,2852,2458,3511,3606,1969,1300,2711,2685,3091,4177,2152,1214,1288,1255,302,222,296,495,245,452,1124,1669,1863,1509,847,239,211,199,192,171,116,157,173,171,182,160,197,210,219,211,206,267,343,361,361,282,260,256,231,217,202,231,198,234,268,323,355,312,305,317,290,316,309,307,256,227,199,249,292,294,160,159,216,208,201,227,225,210,220,211,329,235,269,201,201,153,225,280,298,325,328,330,363,317,261,297,158,189,201,200,184,137,221,192,175,232,303,277,194,196,233,198,191,192,196,187,174,193,515,470,235,205,334,264,180,299,403,181,213,155,264,329,197,260,608,1813,1509,1028,479,447,389,622,199,1161,572,202,363,339,169,295,192,103,104,104,117
-158.897,271,276,273,272,299,306,282,221,237,220,209,218,214,214,219,202,192,216,214,215,190,195,227,253,263,291,291,287,222,267,271,296,335,384,394,386,409,413,405,385,304,233,216,228,247,267,261,258,260,264,251,229,220,234,253,268,295,304,264,257,217,204,175,196,241,294,332,298,273,265,264,312,310,346,229,155,162,170,162,158,164,160,162,163,184,206,219,200,205,212,230,238,230,253,221,197,156,293,642,962,331,151,156,167,189,276,533,431,344,414,561,2373,6220,6988,3054,1220,341,270,259,233,265,295,268,281,277,253,261,268,270,302,317,286,279,233,272,280,266,250,245,229,245,244,252,245,280,316,314,293,285,321,275,279,279,251,244,229,194,154,194,1200,982,1927,2069,1699,857,680,495,281,263,204,247,270,231,223,219,219,219,250,276,266,257,239,235,250,223,259,270,284,303,322,348,352,356,340,326,338,329,363,360
-104.913,416,369,371,382,369,377,358,362,327,288,265,282,288,309,287,269,269,262,234,241,247,257,262,243,252,233,230,235,228,188,201,202,161,234,232,206,199,218,218,222,222,190,237,264,273,219,225,218,200,231,258,238,258,217,225,214,217,216,248,295,260,242,291,313,308,303,317,299,305,272,220,219,215,244,273,322,285,261,222,195,177,163,154,157,189,228,242,222,259,200,191,210,212,219,215,210,220,239,274,291,310,417,381,289,255,234,245,302,311,259,246,245,227,198,182,199,206,232,287,269,245,240,231,204,218,234,260,257,278,261,242,249,270,318,380,350,370,456,356,362,310,300,309,311,323,334,316,295,252,271,320,287,294,249,250,276,309,320,282,263,261,269,300,326,335,360,359,387,382,433,521,528,547,479,436,397,372,272,231,246,262,244,269,244,221,315,299,253,214,232,206,191,189,176,156,146,141,159,159
-50.9283,248,242,218,222,232,237,286,361,306,300,261,327,309,276,261,243,243,254,254,271,299,279,271,260,250,239,217,250,227,238,239,244,224,266,287,286,307,295,292,385,593,506,388,330,281,248,208,228,243,290,323,361,290,228,189,172,203,238,227,244,243,261,291,345,380,375,402,390,406,403,443,385,401,391,437,412,376,409,426,372,338,298,303,247,232,251,257,271,281,320,299,288,313,320,317,311,285,268,199,375,345,257,265,273,270,306,273,240,220,136,135,304,402,491,539,614,546,499,416,404,379,373,343,351,355,304,294,270,285,270,265,253,241,212,236,240,326,410,404,386,355,348,338,281,295,281,291,290,303,275,282,292,309,301,284,258,284,269,276,294,336,351,303,335,315,269,236,191,174,149,144,137,124,129,184,180,229,203,195,198,207,213,305,349,411,428,467,452,491,545,775,1340,2539,3979,1626,645,611,633,648
3.05597,341,343,302,301,329,325,347,381,441,495,515,490,495,380,267,229,219,188,111,53,83,207,300,354,383,337,288,284,275,335,422,428,391,360,332,362,380,374,316,287,282,270,254,271,199,214,198,216,266,306,341,244,282,378,343,311,278,311,296,292,291,276,292,311,289,265,258,238,241,270,289,284,241,195,174,196,197,212,181,206,218,211,431,230,285,280,288,267,283,254,232,178,133,157,254,284,288,288,292,287,283,281,268,265,311,327,309,318,290,200,394,148,116,157,244,256,171,224,349,208,236,258,270,262,196,201,184,200,210,237,261,292,334,355,316,314,328,323,357,365,364,333,349,370,370,408,431,450,488,475,407,355,320,265,243,265,290,315,259,215,267,327,272,283,258,283,261,261,251,266,266,264,261,234,219,217,223,218,223,203,174,165,162,179,256,374,410,349,293,290,262,192,173,154,163,161,163,190,193
57.0403,726,674,609,496,488,422,463,394,366,410,395,368,283,238,227,272,265,261,260,291,290,314,323,322,260,265,302,382,354,310,322,369,401,432,434,397,407,289,276,233,227,222,264,323,327,359,356,327,315,236,215,214,217,334,455,556,566,556,495,465,324,263,253,246,266,267,264,258,284,370,384,406,408,266,283,266,274,277,193,200,297,322,261,243,229,256,252,263,285,279,264,274,294,300,322,322,322,295,330,279,241,212,199,195,190,215,264,267,236,230,233,209,200,184,162,166,164,195,210,248,270,335,393,497,575,604,546,592,491,464,336,389,472,547,493,456,371,316,318,322,255,275,254,217,259,300,316,376,450,483,406,408,434,415,389,320,327,295,294,315,288,286,255,233,108,169,312,293,314,301,277,251,246,245,232,287,291,289,301,282,273,263,261,253,226,206,188,214,228,242,252,309,380,403,271,214,202,222,210
111.025,744,615,608,559,519,502,496,487,419,327,332,338,342,395,392,418,394,375,347,370,343,359,370,343,324,341,415,381,317,294,335,329,327,347,359,364,370,391,423,400,365,328,328,320,325,300,327,341,363,352,340,331,330,329,340,327,316,319,312,311,317,297,296,277,251,257,272,271,322,336,305,234,214,188,213,199,197,228,254,221,223,229,229,242,279,204,193,856,437,300,341,313,253,244,191,178,181,295,345,321,366,437,380,289,265,169,163,139,154,136,131,147,129,123,145,168,156,158,153,155,208,267,290,268,277,232,232,273,249,176,186,182,180,170,218,244,286,368,408,468,446,424,432,476,451,490,429,383,306,325,288,274,271,263,405,572,586,532,557,557,419,378,334,257,231,316,480,517,450,391,210,149,139,140,138,130,118,117,114,121,152,181,162,141,147,152,158,155,222,305,336,304,289,236,196,183,163,138,131
165.009,368,254,289,288,314,310,300,305,386,410,435,369,310,307,296,366,339,353,389,426,438,428,417,380,368,365,349,362,397,514,480,405,335,317,361,492,525,526,502,425,363,267,250,241,309,326,307,316,350,403,2011,2084,486,293,292,239,254,304,351,355,377,426,428,327,240,309,310,328,374,457,493,537,605,561,489,657,809,919,859,784,714,626,523,402,310,280,260,232,194,225,212,203,171,165,157,151,141,149,147,179,224,253,283,300,357,295,243,227,210,186,160,168,178,184,225,346,377,377,363,333,244,170,139,132,132,132,144,150,144,114,131,137,153,173,203,202,266,277,250,218,229,233,273,291,380,436,321,258,273,286,235,204,221,257,291,295,318,363,356,435,361,265,216,184,178,192,229,231,227,231,253,262,265,275,274,287,324,355,416,438,404,377,449,473,668,971,1303,1156,997,522,356,353,347,363,364,299,309,280,251
218.993,694,472,294,245,251,219,217,243,273,246,241,227,216,195,224,216,224,198,186,200,247,245,253,253,252,269,272,248,238,269,295,353,362,372,363,388,336,364,319,283,233,198,214,263,268,280,314,310,291,318,330,305,314,325,319,305,301,302,318,305,289,294,271,643,276,192,237,293,320,338,314,249,209,207,192,264,268,266,270,308,349,383,366,399,376,352,322,323,340,320,369,336,350,349,426,466,513,606,685,786,753,678,650,562,665,678,716,912,1042,1156,1081,896,751,662,618,621,526,459,466,410,401,358,354,328,276,240,235,219,230,256,267,277,288,310,273,285,232,224,224,192,171,202,149,254,224,261,226,240,229,252,288,308,343,355,260,225,209,183,161,148,137,130,125,111,107,95,80,83,90,96,101,106,136,173,458,1038,670,279,219,194,241,259,311,321,283,271,268,272,262,270,293,296,304,292,330,348,364,347,369
272.977,273,269,279,303,298,256,223,220,194,248,266,221,211,214,211,246,293,250,182,266,270,259,263,265,256,264,256,236,220,200,177,181,256,232,276,1423,4663,4352,1733,1909,501,241,248,254,263,265,267,286,280,336,374,347,328,356,321,294,307,340,325,296,244,267,285,321,286,308,315,329,352,379,442,475,447,376,346,334,306,287,280,287,290,273,250,269,353,380,405,465,479,469,446,436,392,414,403,419,427,455,473,435,384,301,306,316,352,364,419,434,452,452,425,360,399,445,504,468,305,252,223,282,297,339,338,341,435,437,437,477,537,561,555,518,542,578,447,416,460,507,494,360,316,281,283,296,1232,4275,5784,3194,1094,339,309,337,347,398,364,468,1068,770,470,373,341,330,337,326,274,288,283,259,230,234,247,251,261,258,254,251,277,301,319,321,322,328,336,376,368,372,349,332,351,304,355,390,487,598,607,565,502,511,471
326.962,388,310,288,291,294,298,295,274,251,277,233,213,267,324,310,328,293,279,252,322,359,407,385,362,344,351,365,296,215,168,219,1084,836,263,272,269,309,347,361,416,399,419,407,399,425,423,437,396,390,392,395,411,407,353,453,443,455,470,515,435,426,417,389,380,363,362,300,283,343,282,322,283,232,247,219,133,104,229,324,379,444,503,427,434,388,365,340,373,363,365,388,350,400,461,464,468,433,416,436,452,563,637,641,666,564,423,415,329,344,357,318,320,292,269,253,252,283,266,229,199,191,242,306,362,322,315,301,298,290,294,322,303,282,278,278,284,306,284,305,304,314,296,289,319,317,550,598,334,378,389,383,351,326,314,306,307,284,254,257,260,227,180,260,260,268,274,283,271,320,359,355,310,278,259,259,280,284,316,365,342,346,333,308,305,321,342,333,327,255,249,251,245,263,298,357,358,395,441,432
328.961,388,320,304,303,315,300,281,263,237,242,228,226,274,302,303,318,307,292,246,336,394,381,355,333,352,364,346,303,268,309,746,831,267,247,245,267,297,291,342,365,375,417,394,401,397,405,415,416,423,402,357,385,443,373,412,485,493,508,507,478,450,457,408,335,325,332,303,274,340,328,321,278,263,247,231,181,129,252,354,417,448,491,426,381,363,336,363,373,352,374,356,339,355,386,410,437,431,391,420,522,502,550,599,482,378,367,355,319,322,328,349,320,310,252,230,232,243,248,270,234,213,273,317,347,322,297,295,296,321,314,285,291,288,261,280,283,296,295,322,334,298,293,285,327,370,1284,570,363,390,394,361,338,329,340,330,297,279,277,271,256,237,227,247,245,269,290,283,304,339,357,355,309,263,261,271,279,319,336,361,324,298,280,309,343,396,431,398,333,285,276,244,254,279,277,304,334,381,417,413